Folder: SHD/3_electro-mechanical coupling/EM_Spring_Switch_Experiment

File: 220519 - FD-3.txt
Displacement [mm] - FD curve	Force [N] - FD curve
0.00275	0
0.022	0
0.04125	0
0.0605	0
0.07975	0
0.099	0
0.11825	0
0.1375	0
0.15675	0
0.176	0
0.19525	0
0.2145	0
0.23375	0
0.253	0
0.27225	0
0.2915	0
0.31075	0
0.33	0
0.34925	0
0.3685	0
0.38775	0
0.407	0
0.42625	0
0.4455	0
0.46475	0
0.484	0
0.50325	0
0.5225	0
0.54175	0
0.561	0
0.58025	0
0.5995	0
0.61875	0.000101937
0.638	0
0.65725	0
0.6765	0
0.69575	0
0.715	0
0.73425	0
0.7535	0
0.77275	0
0.792	0
0.81125	0
0.8305	0
0.84975	0
0.869	0
0.88825	0
0.9075	0
0.92675	0
0.946	0
0.96525	0
0.9845	0.000203874
1.00375	0.000203874
1.023	0.00030581
1.04225	0.000407747
1.0615	0.000407747
1.08075	0.000509684
1.1	0.000611621
1.11925	0.000713558
1.1385	0.000713558
1.15775	0.000815494
1.177	0.000917431
1.19625	0.00101937
1.2155	0.0011213
1.23475	0.00122324
1.254	0.00132518
1.27325	0.00142712
1.2925	0.00163099
1.31175	0.00163099
1.331	0.00183486
1.35025	0.00183486
1.3695	0.00203874
1.38875	0.00203874
1.408	0.00224261
1.42725	0.00234455
1.4465	0.00244648
1.46575	0.00254842
1.485	0.00265036
1.50425	0.00285423
1.5235	0.00295617
1.54275	0.0030581
1.562	0.00326198
1.58125	0.00366972
1.6005	0.00397554
1.61975	0.00417941
1.639	0.00448522
1.65825	0.00489297
1.6775	0.00805301
1.69675	0.0156983
1.716	0.022528
1.73525	0.0303772
1.7545	0.0373089
1.77375	0.045158
1.793	0.0518858
1.81225	0.0590214
1.8315	0.0649337
1.85075	0.0710499
1.87	0.0771662
1.88925	0.082263
1.9085	0.0879715
1.92775	0.0936799
1.947	0.0986748
1.96625	0.104383
1.9855	0.109582
2.00475	0.114985
2.024	0.117635
2.04325	0.11896
2.0625	0.120285
2.08175	0.121509
2.101	0.122732
2.12025	0.124057
2.1395	0.12528
2.15875	0.126606
2.178	0.127829
2.19725	0.129154
2.2165	0.130479
2.23575	0.131804
2.255	0.133129
2.27425	0.134353
2.2935	0.13578
2.31275	0.137105
2.332	0.138328
2.35125	0.139755
2.3705	0.141081
2.38975	0.142406
2.409	0.143833
2.42825	0.145158
2.4475	0.146483
2.46675	0.14791
2.486	0.149337
2.50525	0.150765
2.5245	0.15209
2.54375	0.153517
2.563	0.154944
2.58225	0.156269
2.6015	0.157696
2.62075	0.159225
2.64	0.16055
2.65925	0.161978
2.6785	0.163507
2.69775	0.164832
2.717	0.166361
2.73625	0.16789
2.7445	0.169215
2.72525	0.167686
2.706	0.165851
2.68675	0.164118
2.6675	0.162283
2.64825	0.160754
2.629	0.159021
2.60975	0.15739
2.5905	0.155963
2.57125	0.154434
2.552	0.152905
2.53275	0.151478
2.5135	0.149949
2.49425	0.148522
2.475	0.147095
2.45575	0.145668
2.4365	0.144241
2.41725	0.142712
2.398	0.141386
2.37875	0.139959
2.3595	0.138532
2.34025	0.137207
2.321	0.135882
2.30175	0.134455
2.2825	0.133231
2.26325	0.131906
2.244	0.130479
2.22475	0.129256
2.2055	0.127829
2.18625	0.126606
2.167	0.12528
2.14775	0.123955
2.1285	0.122732
2.10925	0.121407
2.09	0.120082
2.07075	0.118858
2.0515	0.117533
2.03225	0.116412
2.013	0.115087
1.99375	0.109684
1.9745	0.103874
1.95525	0.0975535
1.936	0.091947
1.91675	0.085525
1.8975	0.079001
1.87825	0.0728848
1.859	0.0663609
1.83975	0.0602446
1.8205	0.0538226
1.80125	0.0481142
1.782	0.0416922
1.76275	0.0353721
1.7435	0.0294597
1.72425	0.0232416
1.705	0.0176351
1.68575	0.0115189
1.6665	0.00611621
1.64725	0.00428135
1.628	0.00397554
1.60875	0.00377166
1.5895	0.00346585
1.57025	0.00326198
1.551	0.0030581
1.53175	0.00295617
1.5125	0.00275229
1.49325	0.00265036
1.474	0.00254842
1.45475	0.00244648
1.4355	0.00224261
1.41625	0.00224261
1.397	0.00203874
1.37775	0.00203874
1.3585	0.00183486
1.33925	0.00183486
1.32	0.00163099
1.30075	0.00163099
1.2815	0.00142712
1.26225	0.00142712
1.243	0.00122324
1.22375	0.0011213
1.2045	0.0011213
1.18525	0.000917431
1.166	0.000917431
1.14675	0.000815494
1.1275	0.000713558
1.10825	0.000713558
1.089	0.000611621
1.06975	0.000509684
1.0505	0.000407747
1.03125	0.000407747
1.012	0.00030581
0.99275	0.000203874
0.9735	0.000203874
0.95425	0.000101937
0.935	0
0.91575	0
0.8965	0
0.87725	0
0.858	0
0.83875	0
0.8195	0
0.80025	0
0.781	0
0.76175	0
0.7425	0
0.72325	0
0.704	0
0.68475	0
0.6655	0
0.64625	0
0.627	0
0.60775	0
0.5885	0
0.56925	0
0.55	0
0.53075	0
0.5115	0
0.49225	0
0.473	0
0.45375	0
0.4345	0
0.41525	0
0.396	0
0.37675	0
0.3575	0
0.33825	0
0.319	0
0.29975	0
0.2805	0
0.26125	0
0.242	0
0.22275	0
0.2035	0
0.18425	0
0.165	0
0.14575	0
0.1265	0
0.10725	0
0.088	0
0.06875	0
0.0495	0
0.03025	0
0.011	0
-3.77302E-16	0

File: 220519 - V-3.txt
Displacement [mm] - FD curve	Force [N] - FD curve
0.00275	0.533075
0.022	0.533075
0.04125	0.533075
0.0605	0.533075
0.07975	0.533075
0.099	0.533075
0.11825	0.533075
0.1375	0.533075
0.15675	0.533075
0.176	0.533075
0.19525	0.533075
0.2145	0.533075
0.23375	0.533075
0.253	0.533075
0.27225	0.533075
0.2915	0.533075
0.31075	0.533075
0.33	0.533075
0.34925	0.533075
0.3685	0.533075
0.38775	0.533075
0.407	0.533075
0.42625	0.533075
0.4455	0.533075
0.46475	0.533075
0.484	0.533075
0.50325	0.533075
0.5225	0.533075
0.54175	0.533075
0.561	0.533075
0.58025	0.533075
0.5995	0.533075
0.61875	0.533075
0.638	0.533075
0.65725	0.533075
0.6765	0.533075
0.69575	0.533075
0.715	0.533075
0.73425	0.533075
0.7535	0.533075
0.77275	0.533075
0.792	0.533075
0.81125	0.533075
0.8305	0.533075
0.84975	0.533075
0.869	0.533075
0.88825	0.533075
0.9075	0.533075
0.92675	0.533075
0.946	0.533075
0.96525	0.533075
0.9845	0.533075
1.00375	0.533075
1.023	0.533075
1.04225	0.533075
1.0615	0.533075
1.08075	0.533075
1.1	0.533075
1.11925	0.533075
1.1385	0.533075
1.15775	0.533075
1.177	0.533075
1.19625	0.533075
1.2155	0.533075
1.23475	0.533075
1.254	0.533075
1.27325	0.533075
1.2925	0.533075
1.31175	0.533075
1.331	0.533075
1.35025	0.533075
1.3695	0.533075
1.38875	0.533075
1.408	0.533075
1.42725	0.533075
1.4465	0.533075
1.46575	0.533075
1.485	0.533075
1.50425	0.533075
1.5235	0.533075
1.54275	0.533075
1.562	0.533075
1.58125	0.533075
1.6005	0.533075
1.61975	0.533075
1.639	0.533075
1.65825	0.533075
1.6775	0.533075
1.69675	0.533075
1.716	0.533075
1.73525	0.533075
1.7545	0.533075
1.77375	0.533075
1.793	0.533075
1.81225	0.533075
1.8315	0.533075
1.85075	0.533075
1.87	0.533075
1.88925	0.533075
1.9085	0.533075
1.92775	0.533075
1.947	0.533075
1.96625	0.533075
1.9855	0.533075
2.00475	0.533075
2.024	-0.000604271
2.04325	0.00128244
2.0625	0.000827028
2.08175	-0.000929566
2.101	0.00108726
2.12025	0.000501733
2.1395	-0.0011898
2.15875	-8.37988E-5
2.178	-0.00210063
2.19725	-0.00177533
2.2165	-0.00066933
2.23575	-0.00177533
2.255	0.00154268
2.27425	0.000241496
2.2935	0.000631851
2.31275	-0.00372711
2.332	0.00108726
2.35125	0.00102221
2.3705	0.00108726
2.38975	-0.000409094
2.409	-0.000213917
2.42825	0.00160774
2.4475	0.000892087
2.46675	0.00160774
2.486	4.63193E-5
2.50525	-0.00177533
2.5245	0.000892087
2.54375	0.00147762
2.563	0.000241496
2.58225	-0.00125486
2.6015	4.63193E-5
2.62075	0.000566792
2.64	-0.000799448
2.65925	4.63193E-5
2.6785	0.00115232
2.69775	0.000566792
2.717	0.000827028
2.73625	0.0013475
2.7445	-0.000409094
2.72525	-0.00138498
2.706	-0.000539212
2.68675	0.000371615
2.6675	-0.00184039
2.64825	-0.000604271
2.629	-0.000799448
2.60975	-0.000734389
2.5905	-0.000213917
2.57125	-0.00112474
2.552	-0.00138498
2.53275	-0.00112474
2.5135	-1.87397E-5
2.49425	-0.000344035
2.475	0.00115232
2.45575	-0.00066933
2.4365	0.00102221
2.41725	0.000176437
2.398	-0.000409094
2.37875	0.000761969
2.3595	-0.000213917
2.34025	-0.000539212
2.321	-0.000344035
2.30175	-0.00105968
2.2825	-0.000213917
2.26325	-0.00131992
2.244	0.000957146
2.22475	-0.00125486
2.2055	0.000501733
2.18625	-0.00066933
2.167	0.000176437
2.14775	-0.00171028
2.1285	0.000371615
2.10925	-0.00281628
2.09	-0.000929566
2.07075	0.000176437
2.0515	0.00173785
2.03225	-0.00190545
2.013	0.533075
1.99375	0.533075
1.9745	0.533075
1.95525	0.533075
1.936	0.533075
1.91675	0.533075
1.8975	0.533075
1.87825	0.533075
1.859	0.533075
1.83975	0.533075
1.8205	0.533075
1.80125	0.533075
1.782	0.533075
1.76275	0.533075
1.7435	0.533075
1.72425	0.533075
1.705	0.533075
1.68575	0.533075
1.6665	0.533075
1.64725	0.533075
1.628	0.533075
1.60875	0.533075
1.5895	0.533075
1.57025	0.533075
1.551	0.533075
1.53175	0.533075
1.5125	0.533075
1.49325	0.533075
1.474	0.533075
1.45475	0.533075
1.4355	0.533075
1.41625	0.533075
1.397	0.533075
1.37775	0.533075
1.3585	0.533075
1.33925	0.533075
1.32	0.533075
1.30075	0.533075
1.2815	0.533075
1.26225	0.533075
1.243	0.533075
1.22375	0.533075
1.2045	0.533075
1.18525	0.533075
1.166	0.533075
1.14675	0.533075
1.1275	0.533075
1.10825	0.533075
1.089	0.533075
1.06975	0.533075
1.0505	0.533075
1.03125	0.533075
1.012	0.533075
0.99275	0.533075
0.9735	0.533075
0.95425	0.533075
0.935	0.533075
0.91575	0.533075
0.8965	0.533075
0.87725	0.533075
0.858	0.533075
0.83875	0.533075
0.8195	0.533075
0.80025	0.533075
0.781	0.533075
0.76175	0.533075
0.7425	0.533075
0.72325	0.533075
0.704	0.533075
0.68475	0.533075
0.6655	0.533075
0.64625	0.533075
0.627	0.533075
0.60775	0.533075
0.5885	0.533075
0.56925	0.533075
0.55	0.533075
0.53075	0.533075
0.5115	0.533075
0.49225	0.533075
0.473	0.533075
0.45375	0.533075
0.4345	0.533075
0.41525	0.533075
0.396	0.533075
0.37675	0.533075
0.3575	0.533075
0.33825	0.533075
0.319	0.533075
0.29975	0.533075
0.2805	0.533075
0.26125	0.533075
0.242	0.533075
0.22275	0.533075
0.2035	0.533075
0.18425	0.533075
0.165	0.533075
0.14575	0.533075
0.1265	0.533075
0.10725	0.533075
0.088	0.533075
0.06875	0.533075
0.0495	0.533075
0.03025	0.533075
0.011	0.533075
-3.77302E-16	0.533075